File: RawDataFetcher/RawData/TGA 2.csv
Date, Open, Close, High, Low, Volume
2018-01-02,1.470000,1.460000,1.480000,1.440000,54844
2018-01-03,1.450000,1.450000,1.460000,1.360000,90048
2018-01-04,1.440000,1.430000,1.440100,1.400000,76797
2018-01-05,1.440000,1.440000,1.440000,1.400000,95634
2018-01-08,1.440000,1.440000,1.440000,1.420000,118439
2018-01-09,1.450000,1.449900,1.470000,1.430000,133978
2018-01-10,1.420000,1.445000,1.460000,1.420000,93553
2018-01-11,1.440000,1.480000,1.500000,1.440000,313764
2018-01-12,1.490000,1.470000,1.490000,1.450000,136756
2018-01-16,1.480000,1.450000,1.490000,1.430000,90931
2018-01-17,1.460000,1.447400,1.460000,1.440000,26030
2018-01-18,1.450000,1.470000,1.490000,1.440000,58551
2018-01-19,1.470000,1.480000,1.490000,1.450000,33131
2018-01-22,1.470000,1.470000,1.490000,1.460000,45175
2018-01-23,1.460000,1.450000,1.490000,1.441000,48147
2018-01-24,1.460000,1.460000,1.480000,1.450000,56209
2018-01-25,1.460000,1.480000,1.500000,1.460000,60080
2018-01-26,1.480000,1.490000,1.510000,1.475200,77479
2018-01-29,1.490000,1.480000,1.500000,1.460000,58150
2018-01-30,1.480000,1.390000,1.490000,1.380000,179306
2018-01-31,1.400000,1.470000,1.480000,1.390000,108169
2018-02-01,1.470000,1.470000,1.470000,1.440000,56751
2018-02-02,1.440000,1.443700,1.480000,1.400000,64764
2018-02-05,1.430000,1.415000,1.430000,1.350000,104719
2018-02-06,1.400000,1.390000,1.400200,1.360000,92306
2018-02-07,1.400000,1.370000,1.470000,1.370000,175537
2018-02-08,1.390000,1.300000,1.390000,1.290000,123039
2018-02-09,1.320000,1.260000,1.320000,1.240000,82433
2018-02-12,1.270000,1.310000,1.330000,1.270000,68976
2018-02-13,1.310000,1.325000,1.340000,1.310000,80871
2018-02-14,1.330000,1.330000,1.350000,1.300000,38996
2018-02-15,1.350000,1.300000,1.350000,1.300000,52258
2018-02-16,1.300000,1.320000,1.350000,1.300000,39726
2018-02-20,1.310000,1.330000,1.330000,1.310000,28180
2018-02-21,1.330000,1.280000,1.340000,1.280000,69415
2018-02-22,1.299000,1.300000,1.340000,1.280000,76616
2018-02-23,1.310000,1.320000,1.330000,1.280000,9143
2018-02-26,1.340000,1.340000,1.360000,1.310000,71339
2018-02-27,1.310000,1.280000,1.350000,1.270000,92171
2018-02-28,1.299000,1.300000,1.320000,1.260000,69626
2018-03-01,1.338800,1.290000,1.338800,1.280000,14278
2018-03-02,1.280000,1.250000,1.320000,1.204900,79620
2018-03-05,1.250000,1.285000,1.290000,1.240000,49261
2018-03-06,1.300000,1.290000,1.300000,1.265100,44497
2018-03-07,1.290000,1.285000,1.320000,1.260000,63616
2018-03-08,1.310000,1.280000,1.310000,1.270000,159908
2018-03-09,1.300000,1.290000,1.310000,1.280000,68816
2018-03-12,1.280000,1.309000,1.320000,1.280000,47063
2018-03-13,1.300000,1.340000,1.340000,1.300000,42649
2018-03-14,1.340000,1.330000,1.340000,1.320000,21671
2018-03-15,1.330000,1.340000,1.350000,1.310000,18366
2018-03-16,1.330000,1.320000,1.350000,1.310000,25815
2018-03-19,1.320000,1.340000,1.350000,1.320000,27532
2018-03-20,1.340000,1.360000,1.360000,1.330000,50024
2018-03-21,1.340000,1.410000,1.410000,1.340000,41104
2018-03-22,1.410000,1.450000,1.450000,1.410000,23105
2018-03-23,1.460000,1.450000,1.460000,1.420100,32293
2018-03-26,1.460000,1.380000,1.460000,1.380000,19342
2018-03-27,1.380000,1.345000,1.390000,1.340000,49073
2018-03-28,1.340000,1.330000,1.350000,1.310000,39255
2018-03-29,1.330000,1.340000,1.350000,1.306400,47336
2018-04-02,1.330000,1.320000,1.340000,1.309900,23168
2018-04-03,1.320000,1.320000,1.340000,1.310000,17304
2018-04-04,1.310000,1.320000,1.320000,1.290000,10913
2018-04-05,1.310000,1.250000,1.330000,1.250000,271361
2018-04-06,1.270000,1.290000,1.290000,1.257700,77973
2018-04-09,1.290000,1.268200,1.330000,1.250000,132761
2018-04-10,1.280000,1.310000,1.330000,1.280000,103388
2018-04-11,1.290000,1.320000,1.340000,1.290000,91097
2018-04-12,1.310000,1.360000,1.360000,1.300000,69719
2018-04-13,1.350000,1.360000,1.390000,1.330000,70557
2018-04-16,1.350000,1.395000,1.400000,1.350000,41986
2018-04-17,1.390000,1.400000,1.420000,1.370000,130352
2018-04-18,1.400000,1.390000,1.460000,1.390000,148541
2018-04-19,1.400000,1.470000,1.480000,1.400000,53059
2018-04-20,1.480000,1.609000,1.610000,1.480000,147067
2018-04-23,1.600000,1.570000,1.600000,1.531000,135676
2018-04-24,1.560000,1.580000,1.631500,1.550000,268270
2018-04-25,1.570000,1.630000,1.660000,1.550000,87508
2018-04-26,1.640000,1.630000,1.680000,1.620000,62560
2018-04-27,1.700000,1.650000,1.750000,1.630000,204153
2018-04-30,1.710000,1.799200,1.800000,1.670000,262190
2018-05-01,1.800000,1.830000,1.900000,1.780000,174899
2018-05-02,1.840000,1.853700,1.926600,1.830000,177854
2018-05-03,1.870000,1.929000,1.940000,1.850000,142768
2018-05-04,1.900000,1.865000,1.940000,1.840000,160336
2018-05-07,1.880000,1.954500,2.010000,1.880000,239439
2018-05-08,1.960000,1.990000,2.050000,1.910000,301654
2018-05-09,2.020000,2.140000,2.140000,2.020000,579163
2018-05-10,2.140000,2.000000,2.140000,1.980000,269264
2018-05-11,2.010000,1.911000,2.010000,1.780000,358268
2018-05-14,1.880000,1.920000,1.940000,1.861000,246191
2018-05-15,1.880000,1.950000,2.020000,1.880000,356707
2018-05-16,1.960000,1.959900,2.040000,1.930000,294650
2018-05-17,2.050000,2.053800,2.104300,2.030000,616018
2018-05-18,2.170000,2.210000,2.270000,2.055000,501977
2018-05-21,2.380000,2.640000,2.840000,2.350000,1765615
2018-05-22,2.720000,2.239900,2.750000,2.190100,1471919
2018-05-23,2.210000,2.440000,2.490000,2.200000,675716
2018-05-24,2.400000,2.305000,2.450800,2.290000,375035
2018-05-25,2.300000,2.250000,2.300000,2.120000,488167
2018-05-29,2.240000,2.270000,2.320000,2.131000,248899
2018-05-30,2.280000,2.490000,2.490000,2.260100,458505
2018-05-31,2.490000,2.540000,2.550000,2.460000,329694
2018-06-01,2.560000,2.480000,2.580000,2.430000,411256
2018-06-04,2.470000,2.415000,2.520000,2.370000,397504
2018-06-05,2.390000,2.360000,2.420000,2.240000,414841
2018-06-06,2.370000,2.459900,2.470000,2.341700,222648
2018-06-07,2.490000,2.430000,2.520000,2.410000,260721
2018-06-08,2.450000,2.460000,2.470000,2.380000,178775
2018-06-11,2.390000,2.370000,2.420000,2.300000,440858
2018-06-12,2.350000,2.400000,2.479900,2.350000,265201
2018-06-13,2.390000,2.395000,2.450000,2.360000,380416
2018-06-14,2.420000,2.315000,2.469900,2.310000,241426
2018-06-15,2.300000,2.240000,2.309000,2.240000,408218
2018-06-18,2.230000,2.330000,2.380000,2.230000,230962
2018-06-19,2.340000,2.390000,2.410000,2.270000,213986
2018-06-20,2.400000,2.370000,2.430000,2.347500,183621
2018-06-21,2.360000,2.305000,2.360000,2.280000,173072
2018-06-22,2.340000,2.380000,2.465000,2.299900,510690
2018-06-25,2.360000,2.420000,2.430000,2.320100,154686
2018-06-26,2.430000,2.440000,2.480000,2.380000,507413
2018-06-27,2.440000,2.630000,2.680000,2.440000,904908
2018-06-28,2.650000,2.715900,2.840000,2.650000,719359
2018-06-29,2.770000,2.762500,2.830000,2.690000,619815
2018-07-02,2.760000,2.725000,2.760000,2.630000,270765
2018-07-03,2.760000,2.860000,3.030000,2.756100,906256
2018-07-05,2.900000,2.895000,2.930000,2.800000,755025
2018-07-06,2.940000,2.935000,2.950000,2.860000,492199
2018-07-09,2.980000,3.295000,3.300000,2.950000,1300903
2018-07-10,3.330000,3.410000,3.480000,3.320000,1306868
2018-07-11,3.400000,3.750000,3.920000,3.330000,1967923
2018-07-12,3.890000,3.750000,3.890000,3.660000,1350477
2018-07-13,3.770000,4.050000,4.130000,3.760000,1743680
2018-07-16,4.000000,3.780000,4.000000,3.670000,1636965
2018-07-17,3.740000,3.531000,3.740000,3.520000,985484
2018-07-18,3.520000,3.590000,4.035000,3.370000,990161
2018-07-19,3.570000,3.580000,3.700000,3.561000,711699
2018-07-20,3.600000,3.430000,3.610000,3.393200,586761
2018-07-23,3.450000,3.415000,3.500000,3.360000,363278
2018-07-24,3.370000,3.380100,3.530000,3.370000,657734
2018-07-25,3.370000,3.360000,3.460000,3.310000,341913
2018-07-26,3.330000,3.350000,3.400000,3.280000,300083
2018-07-27,3.370000,3.180000,3.370000,3.135000,529875
2018-07-30,3.180000,3.130000,3.230000,3.110000,314386
2018-07-31,3.140000,3.240000,3.300000,3.080000,387643
2018-08-01,3.240000,3.220000,3.300000,3.130000,297530
2018-08-02,3.230000,3.160000,3.270000,3.120200,231935
2018-08-03,3.170000,3.220000,3.270000,3.160000,560918
2018-08-06,3.200000,3.090000,3.300000,3.070000,399311
2018-08-07,3.100000,3.190000,3.280000,3.100000,273496
2018-08-08,3.170000,3.210000,3.240000,3.160000,406310
2018-08-09,3.210000,3.200000,3.240000,3.130000,206692
2018-08-10,3.200000,3.200000,3.230000,3.140000,342762
2018-08-13,3.220000,3.050000,3.220000,3.020000,508545
2018-08-14,3.190000,3.130000,3.500000,2.950000,2443074
2018-08-15,3.110000,2.930000,3.120000,2.830000,696395
2018-08-16,2.920000,3.070000,3.110000,2.880100,586472
2018-08-17,3.090000,3.120000,3.215000,3.070000,632878
2018-08-20,3.100000,3.324800,3.380000,3.100000,425229
2018-08-21,3.380000,3.470000,3.580000,3.310000,538991
2018-08-22,3.500000,3.467500,3.580000,3.425000,456099
2018-08-23,3.500000,3.420000,3.500000,3.250000,516225
2018-08-24,3.430000,3.490000,3.600000,3.430000,272841
2018-08-27,3.490000,3.470000,3.530000,3.420000,215684
2018-08-28,3.430000,3.440000,3.530000,3.420000,269919
2018-08-29,3.440000,3.460000,3.500000,3.420000,141983
2018-08-30,3.450000,3.390000,3.610000,3.350000,305458
2018-08-31,3.360000,3.370000,3.390000,3.310000,135258
2018-09-04,3.380000,3.320000,3.380000,3.260000,210730
2018-09-05,3.300000,3.300000,3.370000,3.190000,431358
2018-09-06,3.280000,3.240000,3.350000,3.180000,243600
2018-09-07,3.190000,3.210000,3.240000,3.160000,110579
2018-09-10,3.250000,3.500000,3.510000,3.235000,910746
2018-09-11,3.600000,3.730000,3.810000,3.521000,777431
2018-09-12,3.800000,3.620000,3.849900,3.500000,348191
2018-09-13,3.560000,3.580000,3.700000,3.540000,201280
2018-09-14,3.510000,3.640000,3.680000,3.510000,194026
2018-09-17,3.610000,3.540000,3.650000,3.525000,160444
2018-09-18,3.560000,3.395000,3.590000,3.366800,342500
2018-09-19,3.400000,3.400000,3.410000,3.350000,180825
2018-09-20,3.380000,3.320000,3.400000,3.250000,339608
2018-09-21,3.310000,3.320000,3.356000,3.230000,275080
2018-09-24,3.310000,3.440000,3.480000,3.310000,430315
2018-09-25,3.510000,3.440000,3.699900,3.410000,690467
2018-09-26,3.430000,3.330000,3.440000,3.330000,443527
2018-09-27,3.350000,3.300000,3.350000,3.280000,392827
2018-09-28,3.290000,3.340000,3.440000,3.267500,737728
2018-10-01,3.350000,3.520000,3.570000,3.350000,440612
2018-10-02,3.500000,3.480000,3.560000,3.450000,439185
2018-10-03,3.480000,3.440000,3.512100,3.355000,766810
2018-10-04,3.450000,3.310000,3.470000,3.280000,992003
2018-10-05,3.310000,3.320000,3.360000,3.107500,1355120
2018-10-08,3.300000,3.280000,3.300000,3.160000,483196
2018-10-09,3.260000,3.360000,3.410000,3.140000,232673
2018-10-10,3.360000,3.180000,3.370000,3.160000,434236
2018-10-11,3.140000,3.000000,3.210000,2.990000,692035
2018-10-12,3.050000,3.100100,3.170000,3.050000,613536
2018-10-15,3.100000,3.028200,3.150000,3.000000,555612
2018-10-16,3.010000,3.120000,3.140000,3.000000,465296
2018-10-17,3.110000,3.085000,3.130000,3.010000,224208
2018-10-18,3.050000,3.010000,3.075000,2.950000,671123
2018-10-19,3.040000,2.990000,3.100000,2.970000,362944
2018-10-22,2.970000,2.590000,3.000000,2.550000,1267986
2018-10-23,2.520000,2.040000,2.600000,2.020000,2566173
2018-10-24,2.060000,2.330000,2.440000,2.060000,1078959
2018-10-25,2.380000,2.440000,2.500000,2.270000,491025
2018-10-26,2.400000,2.445000,2.510000,2.380000,362449
2018-10-29,2.460000,2.320000,2.485000,2.270000,314072
2018-10-30,2.280000,2.320000,2.350000,2.180000,527720
2018-10-31,2.330000,2.310000,2.420000,2.300000,201995
2018-11-01,2.330000,2.460000,2.470000,2.280000,260178
2018-11-02,2.460000,2.360000,2.480000,2.310000,211398
2018-11-05,2.360000,2.370000,2.420000,2.300000,218215
2018-11-06,2.380000,2.390000,2.420000,2.320000,181631
2018-11-07,2.400000,2.410000,2.510000,2.370000,120359
2018-11-08,2.300000,2.220000,2.370000,2.140000,340963
2018-11-09,2.210000,2.170000,2.210000,2.090000,162860
2018-11-12,2.160000,2.110000,2.200000,2.050000,267723
2018-11-13,2.100000,2.420000,2.470000,2.070000,490769
2018-11-14,2.410000,2.140000,2.420000,2.120000,245585
2018-11-15,2.050000,2.210000,2.260000,2.050000,89993
2018-11-16,2.220000,2.240000,2.260000,2.120000,141107
2018-11-19,2.320000,2.320000,2.440000,2.230000,345697
2018-11-20,2.260000,2.130000,2.300000,2.080000,269350
2018-11-21,2.160000,2.220000,2.230000,2.150000,123520
2018-11-23,2.160000,2.110000,2.170000,2.100000,52753
2018-11-26,2.140000,2.170000,2.210000,2.140000,261899
2018-11-27,2.140000,2.010000,2.170000,1.970000,240834
2018-11-28,2.030000,2.050000,2.070000,1.960000,179307
2018-11-29,2.080000,2.170000,2.190000,2.000000,172318
2018-11-30,2.130000,2.160000,2.170000,2.100000,137046
2018-12-03,2.170000,2.180000,2.230000,2.150000,139664
2018-12-04,2.180000,2.120000,2.180000,2.110000,137041
2018-12-06,2.110000,1.957500,2.150600,1.920000,269269
2018-12-07,2.030000,2.010000,2.070000,1.965000,160983
2018-12-10,1.980000,1.800000,1.980000,1.795400,349971
2018-12-11,1.850000,1.900000,1.910000,1.820000,110657
2018-12-12,1.920000,1.880000,1.950000,1.870000,214766
2018-12-13,1.890000,1.850000,1.915000,1.830000,146057
2018-12-14,1.850000,1.780000,1.877300,1.770000,77537
2018-12-17,1.790000,1.760000,1.840000,1.750000,334317
2018-12-18,1.780000,1.715000,1.780000,1.698300,184693
2018-12-19,1.710000,1.670000,1.750000,1.640000,183185
2018-12-20,1.660000,1.610000,1.660000,1.549900,305339
2018-12-21,1.610000,1.580000,1.640000,1.550000,111712
2018-12-24,1.550000,1.505000,1.570000,1.500000,151128
2018-12-26,1.520000,1.660000,1.680000,1.480000,145732
2018-12-27,1.620000,1.680000,1.680000,1.580000,110405
2018-12-28,1.680000,1.690000,1.730000,1.630000,100915
2018-12-31,1.700000,1.850000,1.880000,1.690000,230776
2019-01-02,1.860000,1.800000,1.940000,1.770000,247575
2019-01-03,1.850000,1.890000,1.890000,1.760000,67510
2019-01-04,1.920000,1.920100,1.970000,1.870000,166387
2019-01-07,1.930000,2.070000,2.130000,1.930000,176681
2019-01-08,2.090000,2.040000,2.090000,1.980000,64655
2019-01-09,2.060000,2.090000,2.110000,2.030000,131728
2019-01-10,2.060000,2.025000,2.060000,2.000000,44348
2019-01-11,2.030000,1.990000,2.030000,1.970000,34896
2019-01-14,1.960000,1.930000,1.990200,1.910000,60192
2019-01-15,1.960000,1.960000,2.010000,1.900000,53342
2019-01-16,1.960000,1.950000,2.000000,1.930000,78850
2019-01-17,1.920000,1.940000,1.960000,1.900000,37767
2019-01-18,1.940000,1.895900,1.940000,1.840000,161783
2019-01-22,1.800000,1.765000,1.885800,1.750000,103417
2019-01-23,1.760000,1.750000,1.840000,1.750000,93209
2019-01-24,1.760000,1.785000,1.860000,1.760000,89200
2019-01-25,1.820000,1.860000,1.880000,1.770000,42688
2019-01-28,1.840000,1.770000,1.849200,1.770000,17086
2019-01-29,1.800000,1.730000,1.820000,1.670000,162220
2019-01-30,1.720000,1.830000,1.845000,1.720000,163100
2019-01-31,1.850000,1.810000,1.900000,1.780000,87416
2019-02-01,1.820000,1.930000,1.990000,1.820000,100727
2019-02-04,1.930000,1.920000,1.949900,1.863100,29760
2019-02-05,1.930000,1.910000,1.940000,1.880000,42138
2019-02-06,1.910000,1.930000,1.960000,1.880000,41800
2019-02-07,1.920000,1.870000,1.940000,1.828800,22655
2019-02-08,1.860000,1.840000,1.909200,1.795400,62607
2019-02-11,1.830000,1.830000,1.860000,1.800000,55829
2019-02-12,1.880000,1.900000,1.920000,1.850000,40995
2019-02-13,1.910000,1.980000,1.999900,1.910000,76564
2019-02-14,1.960000,2.010000,2.050000,1.960000,92200
2019-02-15,2.030000,2.090000,2.120000,2.030000,129579
2019-02-21,2.000000,2.020000,2.080000,2.000000,95232
2019-02-22,2.030000,2.070000,2.100000,2.020000,78493
2019-02-25,2.070000,2.030000,2.089000,2.020000,54836
2019-02-26,2.030000,1.980000,2.062900,1.960000,69109
2019-02-27,2.000000,2.015000,2.040000,2.000000,26221
2019-02-28,2.030000,1.980000,2.050000,1.980000,72623
2019-03-01,2.000000,1.980000,2.049900,1.960000,99476
2019-03-04,2.000000,1.980000,2.040000,1.980000,74873
2019-03-05,2.000000,2.080000,2.140000,2.000000,63332
2019-03-06,2.040000,2.040000,2.200000,2.020000,130536
2019-03-07,2.030000,2.040000,2.070000,1.990000,44766
2019-03-08,2.020000,2.020000,2.060000,1.980000,58508
2019-03-11,2.030000,2.080000,2.130000,2.030000,59546
2019-03-12,2.070000,2.110000,2.160000,2.060000,142002
2019-03-13,2.110000,2.070000,2.160000,2.060000,94321
2019-03-14,2.060000,2.080000,2.080000,2.060000,689
2019-03-15,2.080000,2.040000,2.110000,2.010000,160975
2019-03-18,2.070000,2.160000,2.190000,2.069700,135211
2019-03-19,2.170000,2.160000,2.190000,2.130000,69520
2019-03-20,2.180000,2.130000,2.180000,2.120000,175569
2019-03-21,2.130000,2.090000,2.160000,2.090000,118295
2019-03-22,2.090000,1.970000,2.090000,1.970000,270213
2019-03-25,1.980000,1.860000,1.980000,1.820000,334155
2019-03-26,1.870000,1.750000,1.900000,1.720000,434779
2019-03-27,1.760000,1.840000,1.860000,1.750000,85960
2019-03-28,1.810000,1.850000,1.870000,1.810000,140657
2019-03-29,1.900000,1.890000,1.910000,1.890000,1801
2019-04-01,1.930000,1.830000,1.939900,1.820000,114295
2019-04-02,1.850000,1.860000,1.900000,1.850000,105660
2019-04-03,1.870000,1.800000,1.870000,1.790000,74117
2019-04-04,1.810000,1.770000,1.830000,1.770000,52348
2019-04-05,1.790000,1.850000,1.860000,1.770000,87207
2019-04-08,1.850000,1.880000,1.910000,1.850000,97706
2019-04-09,1.860000,1.860000,1.890000,1.850000,54814
2019-04-10,1.860000,1.890000,1.950300,1.860000,107978
2019-04-11,1.880000,1.880000,1.970000,1.860000,83965
2019-04-12,1.930000,1.880000,1.950000,1.870000,144761
2019-04-15,1.880000,1.860000,1.880000,1.830000,124572
2019-04-16,1.860000,1.860000,1.886700,1.840000,65971
2019-04-17,1.830000,1.860000,1.870000,1.830000,66345
2019-04-18,1.850000,1.880000,1.880000,1.850000,74995
2019-04-22,1.900000,1.950000,2.010000,1.900000,134700
2019-04-23,1.960000,1.890000,2.010000,1.890000,321988
2019-04-24,1.950000,1.920000,1.970000,1.890000,147412
2019-04-25,1.920000,1.930000,1.949900,1.903900,68083
2019-04-26,1.920000,1.880000,1.920000,1.850100,93540
2019-04-29,1.900000,1.950000,1.950000,1.870000,51597
2019-04-30,1.950000,1.965000,1.970000,1.920000,53980
2019-05-01,1.960000,1.910000,1.960000,1.910000,43104
2019-05-02,1.910000,1.870000,1.910000,1.870000,33324
2019-05-03,1.900000,1.880000,1.900000,1.840000,160382
2019-05-06,1.880000,1.855000,1.880000,1.849100,145290
2019-05-07,1.830000,1.850000,1.860000,1.785000,98401
2019-05-08,1.820000,1.820000,1.860000,1.820000,60575
2019-05-09,1.830000,1.805000,1.830000,1.790000,37843
2019-05-10,1.800000,1.780000,1.830000,1.779900,103295
2019-05-13,1.790000,1.770000,1.800000,1.750000,78067
2019-05-14,1.780000,1.760000,1.810000,1.755000,152875
2019-05-15,1.750000,1.750000,1.780000,1.740000,203793
2019-05-16,1.760000,1.760000,1.790000,1.750000,68070
2019-05-17,1.740000,1.740000,1.760000,1.730000,39853
2019-05-20,1.720000,1.685000,1.730000,1.680000,193266
2019-05-21,1.680000,1.670000,1.720000,1.660000,115703
2019-05-22,1.660000,1.600000,1.690000,1.600000,99828
2019-05-23,1.600000,1.520000,1.600000,1.500000,146303
2019-05-24,1.520000,1.520000,1.590000,1.490000,136947
2019-05-28,1.510000,1.510000,1.561500,1.495000,118059
2019-05-29,1.520000,1.520000,1.560000,1.500000,99558
2019-05-30,1.530000,1.520000,1.550000,1.500000,89826
2019-05-31,1.490000,1.500000,1.520000,1.440000,90165
2019-06-04,1.530000,1.530000,1.550000,1.490000,62328
2019-06-05,1.540000,1.530000,1.540000,1.500000,101304
2019-06-06,1.530000,1.515000,1.540000,1.510000,45204
2019-06-07,1.510000,1.550000,1.550000,1.510000,79980
2019-06-10,1.540000,1.480000,1.559100,1.470000,186908
2019-06-11,1.490000,1.470000,1.500000,1.450000,136717
2019-06-12,1.470000,1.420000,1.500000,1.400000,139879
2019-06-13,1.440000,1.450000,1.480000,1.440000,79668
2019-06-14,1.470000,1.380000,1.470000,1.380000,240097
2019-06-17,1.410000,1.410000,1.430000,1.380000,57625
2019-06-18,1.430000,1.440000,1.460000,1.410000,61448
2019-06-19,1.450000,1.390000,1.480000,1.390000,153825
2019-06-20,1.420000,1.440000,1.470000,1.410000,241991
2019-06-21,1.410000,1.410000,1.440000,1.410000,338098
2019-06-24,1.430000,1.387500,1.434900,1.380000,103608
2019-06-25,1.390000,1.390000,1.420000,1.380000,211836
2019-06-26,1.410000,1.420000,1.450000,1.370000,209732
2019-06-27,1.390000,1.400000,1.420000,1.390000,55069
2019-06-28,1.420000,1.400000,1.420000,1.390000,53908
2019-07-01,1.390000,1.400000,1.440000,1.390000,52285
2019-07-02,1.400000,1.360000,1.440000,1.350000,80643
2019-07-03,1.370000,1.360000,1.370000,1.360000,33355
2019-07-05,1.370000,1.350000,1.370000,1.340000,62604
2019-07-08,1.350000,1.350000,1.400000,1.340000,260324
2019-07-09,1.360000,1.370000,1.380000,1.340000,96266
2019-07-10,1.380000,1.450000,1.460000,1.380000,416891
2019-07-11,1.500000,1.460000,1.500100,1.450000,172911
2019-07-12,1.470000,1.465000,1.480000,1.450000,99331
2019-07-15,1.470000,1.480000,1.500000,1.460000,73794
2019-07-16,1.480000,1.460000,1.490000,1.460000,61902
2019-07-17,1.466200,1.430000,1.466200,1.430000,168738
2019-07-18,1.440000,1.440000,1.450000,1.430000,100794
2019-07-19,1.430000,1.450000,1.460000,1.420000,103751
2019-07-22,1.460000,1.430000,1.470000,1.410000,130666
2019-07-23,1.450000,1.450000,1.460000,1.430000,21850
2019-07-24,1.450000,1.450000,1.475200,1.450000,42328
2019-07-25,1.470000,1.410000,1.470000,1.410000,42431
2019-07-26,1.410000,1.380000,1.410000,1.360000,86966
2019-07-29,1.380000,1.400000,1.430000,1.380000,113755
2019-07-30,1.390000,1.490000,1.490000,1.360000,176493
2019-07-31,1.490000,1.550000,1.553100,1.465000,193370
2019-08-01,1.550000,1.510000,1.590000,1.500000,174227
2019-08-02,1.520000,1.450000,1.550000,1.450000,58029
2019-08-05,1.440000,1.460000,1.480000,1.400000,111577
2019-08-06,1.450000,1.420000,1.460000,1.420000,198123
2019-08-07,1.420000,1.440000,1.460000,1.380000,103952
2019-08-08,1.440000,1.430000,1.460000,1.410000,125623
2019-08-09,1.480000,1.420000,1.480000,1.420000,32962
2019-08-12,1.420000,1.470000,1.480000,1.400000,116357
2019-08-13,1.470000,1.520000,1.550000,1.460000,209710
2019-08-14,1.520000,1.420000,1.520000,1.420000,142004
2019-08-15,1.430000,1.430000,1.450000,1.400000,149883
2019-08-16,1.450000,1.470000,1.490000,1.400000,106630
2019-08-19,1.470000,1.440000,1.490000,1.420000,140104
2019-08-20,1.450000,1.410000,1.460000,1.400000,50155
2019-08-21,1.420000,1.430000,1.470000,1.420000,25879
2019-08-22,1.450000,1.420000,1.450000,1.420000,31509
2019-08-23,1.430000,1.340000,1.430000,1.340000,174777
2019-08-26,1.370000,1.330000,1.380000,1.320000,108731
2019-08-27,1.340000,1.320000,1.360000,1.299900,92587
2019-08-28,1.340000,1.340000,1.360000,1.335000,94531
2019-08-29,1.330000,1.350000,1.360000,1.310000,139207
2019-08-30,1.350000,1.325000,1.370000,1.310000,103958
2019-09-03,1.330000,1.310000,1.330000,1.290000,84179
2019-09-04,1.350000,1.330000,1.370000,1.330000,267881
2019-09-05,1.360000,1.360000,1.370000,1.321500,67919
2019-09-06,1.370000,1.390000,1.430000,1.350000,60370
2019-09-09,1.410000,1.440000,1.460000,1.410000,126830
2019-09-10,1.460000,1.485000,1.500000,1.440000,255308
2019-09-11,1.500000,1.470000,1.525000,1.460000,147955
2019-09-12,1.490000,1.420000,1.490000,1.411600,219307
2019-09-13,1.440000,1.410000,1.460000,1.380000,186548
2019-09-16,1.500000,1.510000,1.600000,1.490000,368010
2019-09-17,1.510000,1.450000,1.520000,1.430000,140189
2019-09-18,1.460000,1.430000,1.500000,1.430000,264467
2019-09-19,1.440000,1.460000,1.490000,1.440000,75644
2019-09-20,1.480000,1.420000,1.480000,1.400000,199775
2019-09-23,1.380000,1.420000,1.478200,1.380000,246593
2019-09-24,1.410000,1.390000,1.430000,1.380000,105354
2019-09-25,1.380000,1.360000,1.400000,1.360000,78351
2019-09-26,1.370000,1.350000,1.370000,1.340000,162999
2019-09-27,1.350000,1.330000,1.360000,1.320000,160247
2019-09-30,1.330000,1.320000,1.350000,1.310600,107320
2019-10-01,1.320000,1.310000,1.350000,1.300000,211382
2019-10-02,1.310000,1.276600,1.315000,1.260000,219189
2019-10-03,1.280000,1.270000,1.280000,1.260000,124137
2019-10-04,1.280000,1.300000,1.300000,1.280000,56274
2019-10-07,1.310000,1.320000,1.330000,1.310000,66500
2019-10-08,1.350000,1.300000,1.350000,1.290000,191702
2019-10-09,1.310000,1.280000,1.340000,1.280000,185764
2019-10-10,1.310000,1.270000,1.314200,1.250000,473674
2019-10-11,1.280000,1.280000,1.330000,1.263000,567218
2019-10-14,1.290000,1.300000,1.300000,1.280000,70704
2019-10-15,1.290000,1.295000,1.330000,1.280000,147242
2019-10-16,1.290000,1.260000,1.320000,1.260000,121498
2019-10-17,1.270000,1.260000,1.270000,1.250000,213698
2019-10-18,1.270000,1.250000,1.290000,1.240000,218205
2019-10-21,1.260000,1.250000,1.270000,1.240000,45188
2019-10-22,1.250000,1.230000,1.270000,1.230000,129217
2019-10-23,1.240000,1.230000,1.270000,1.220000,132002
2019-10-24,1.240000,1.220000,1.270000,1.220000,120646
2019-10-25,1.220000,1.200000,1.260000,1.200000,157549
2019-10-28,1.200000,1.200000,1.220000,1.190000,140235
2019-10-29,1.190000,1.185000,1.210000,1.170000,227947
2019-10-30,1.180000,1.170000,1.190000,1.160000,79348
2019-10-31,1.165000,1.150000,1.170000,1.150000,78878
2019-11-01,1.160000,1.160000,1.220000,1.150000,157198
2019-11-04,1.190000,1.235000,1.240000,1.180000,288152
2019-11-05,1.240000,1.250000,1.280000,1.230000,108715
2019-11-06,1.270000,1.230000,1.270000,1.210000,56431
2019-11-07,1.230000,1.230000,1.255000,1.225400,75280
2019-11-08,1.230000,1.220000,1.240000,1.200000,73065
2019-11-11,1.220000,1.210000,1.230000,1.200000,77328
2019-11-12,1.220000,1.180000,1.220000,1.180000,150403
2019-11-13,1.180000,1.170000,1.180000,1.160000,52619
2019-11-14,1.170000,1.170000,1.210000,1.160000,40829
2019-11-15,1.170000,1.180000,1.190000,1.170000,125302
2019-11-18,1.190000,1.120000,1.190000,1.120000,303589
2019-11-19,1.110000,1.120000,1.145000,1.110000,266806
2019-11-20,1.110000,1.150000,1.155000,1.090000,245185
2019-11-21,1.150000,1.140000,1.170000,1.140000,103780
2019-11-22,1.150000,1.140000,1.170000,1.130000,106551
2019-11-25,1.140000,1.130000,1.160000,1.110000,199680
2019-11-26,1.150000,1.160000,1.170000,1.128700,120820
2019-11-27,1.160000,1.140000,1.170000,1.140000,73940
2019-11-29,1.140000,1.130000,1.150000,1.120000,278246
2019-12-02,1.110000,1.120000,1.170000,1.070000,173343
2019-12-03,1.120000,1.130000,1.130000,1.117000,27503
2019-12-04,1.130000,1.135000,1.150000,1.110000,221084
2019-12-05,1.130000,1.145000,1.170500,1.130000,171617
2019-12-06,1.160000,1.190000,1.200000,1.150000,159690
2019-12-09,1.200000,1.180000,1.210000,1.180000,248084
2019-12-10,1.190000,1.175000,1.198900,1.160000,99604
2019-12-11,1.180000,1.190000,1.190000,1.170000,70974
2019-12-12,1.190000,1.230000,1.232700,1.173000,180529
2019-12-13,1.230000,1.270000,1.300000,1.230000,184826
2019-12-16,1.270000,1.280000,1.320000,1.260000,183658
2019-12-17,1.280000,1.250000,1.310000,1.240000,240059
2019-12-18,1.280000,1.300000,1.320000,1.240000,116430
2019-12-19,1.350000,1.380000,1.383300,1.320000,326358
2019-12-20,1.360000,1.450000,1.455000,1.360000,302514
2019-12-23,1.470000,1.470000,1.530000,1.470000,251165
2019-12-24,1.490000,1.450000,1.490000,1.450000,59939
2019-12-26,1.450000,1.440000,1.480000,1.400000,108738
2019-12-27,1.430000,1.430000,1.470000,1.430000,136234
2019-12-30,1.440000,1.480000,1.490000,1.433000,176866
2019-12-31,1.480000,1.380000,1.565000,1.360000,721437
2020-01-02,1.400000,1.460000,1.480000,1.370300,123591
2020-01-03,1.490000,1.450000,1.500000,1.417700,252575