File: RawDataFetcher/RawData/TGA.csv
Date, Open, Close, High, Low, Volume
2018-01-02T05:00:00Z,1.470000,1.460000,1.480000,1.440000,54845
2018-01-03T05:00:00Z,1.450000,1.440000,1.460000,1.360000,94591
2018-01-04T05:00:00Z,1.440000,1.440000,1.440100,1.402400,77843
2018-01-05T05:00:00Z,1.440000,1.440000,1.440000,1.410000,98941
2018-01-08T05:00:00Z,1.440000,1.440000,1.440000,1.420000,119269
2018-01-09T05:00:00Z,1.450000,1.449900,1.470000,1.430000,135267
2018-01-10T05:00:00Z,1.420000,1.445000,1.460000,1.420000,94734
2018-01-11T05:00:00Z,1.440000,1.480000,1.500000,1.440000,314995
2018-01-12T05:00:00Z,1.490000,1.470000,1.490000,1.450000,137980
2018-01-16T05:00:00Z,1.490000,1.460000,1.490000,1.430000,91340
2018-01-17T05:00:00Z,1.460000,1.447400,1.460000,1.440000,28331
2018-01-18T05:00:00Z,1.450000,1.470000,1.490000,1.440000,59235
2018-01-19T05:00:00Z,1.470000,1.480000,1.490000,1.450000,33351
2018-01-22T05:00:00Z,1.470000,1.470000,1.490000,1.460000,48478
2018-01-23T05:00:00Z,1.460000,1.450000,1.490000,1.441000,48978
2018-01-24T05:00:00Z,1.470000,1.460000,1.480000,1.450000,56486
2018-01-25T05:00:00Z,1.460000,1.480000,1.500000,1.460000,60995
2018-01-26T05:00:00Z,1.480000,1.490000,1.510000,1.480000,77563
2018-01-29T05:00:00Z,1.490000,1.480000,1.500000,1.460000,59426
2018-01-30T05:00:00Z,1.480000,1.390000,1.490000,1.380000,180502
2018-01-31T05:00:00Z,1.400000,1.470000,1.480000,1.380000,118619
2018-02-01T05:00:00Z,1.470000,1.460000,1.470000,1.440000,58237
2018-02-02T05:00:00Z,1.440000,1.443700,1.470000,1.400000,65314
2018-02-05T05:00:00Z,1.430000,1.410000,1.430000,1.350000,105792
2018-02-06T05:00:00Z,1.400000,1.400000,1.400200,1.360000,93431
2018-02-07T05:00:00Z,1.400000,1.370000,1.470000,1.370000,175870
2018-02-08T05:00:00Z,1.370000,1.300000,1.375200,1.290000,123755
2018-02-09T05:00:00Z,1.320000,1.269900,1.320000,1.240000,83136
2018-02-12T05:00:00Z,1.270000,1.330000,1.330000,1.270000,70321
2018-02-13T05:00:00Z,1.310000,1.325000,1.340000,1.310000,80965
2018-02-14T05:00:00Z,1.330000,1.330000,1.350000,1.300000,39404
2018-02-15T05:00:00Z,1.350000,1.300000,1.350000,1.300000,52794
2018-02-16T05:00:00Z,1.300000,1.320000,1.350000,1.300000,39746
2018-02-20T05:00:00Z,1.310000,1.330000,1.330000,1.310000,28506
2018-02-21T05:00:00Z,1.330000,1.280000,1.340000,1.280000,69688
2018-02-22T05:00:00Z,1.299000,1.300000,1.340000,1.280000,77269
2018-02-23T05:00:00Z,1.290000,1.320000,1.320000,1.280000,9757
2018-02-26T05:00:00Z,1.340000,1.340000,1.360000,1.310000,71858
2018-02-27T05:00:00Z,1.310000,1.270000,1.350000,1.270000,92636
2018-02-28T05:00:00Z,1.299000,1.295000,1.320000,1.260000,70432
2018-03-01T05:00:00Z,1.338800,1.290000,1.338800,1.280000,14278
2018-03-02T05:00:00Z,1.280000,1.250000,1.320000,1.204900,79677
2018-03-05T05:00:00Z,1.250000,1.290000,1.290000,1.240000,49764
2018-03-06T05:00:00Z,1.300000,1.280000,1.300000,1.265100,45077
2018-03-07T05:00:00Z,1.300000,1.280000,1.320000,1.270000,64872
2018-03-08T05:00:00Z,1.310000,1.280000,1.310000,1.270000,160550
2018-03-09T05:00:00Z,1.300000,1.290000,1.310000,1.280000,69072
2018-03-12T04:00:00Z,1.280000,1.309000,1.320000,1.280000,47422
2018-03-13T04:00:00Z,1.300000,1.340000,1.340000,1.300000,44166
2018-03-14T04:00:00Z,1.340000,1.330000,1.340000,1.320000,21884
2018-03-15T04:00:00Z,1.330000,1.350000,1.350000,1.310000,19116
2018-03-16T04:00:00Z,1.330000,1.330000,1.350000,1.320000,26354
2018-03-19T04:00:00Z,1.320000,1.340000,1.350000,1.320000,27726
2018-03-20T04:00:00Z,1.330000,1.360000,1.360000,1.330000,50424
2018-03-21T04:00:00Z,1.340000,1.410000,1.410000,1.340000,41873
2018-03-22T04:00:00Z,1.410000,1.450000,1.450000,1.410000,23867
2018-03-23T04:00:00Z,1.460000,1.450000,1.460000,1.420100,33225
2018-03-26T04:00:00Z,1.460000,1.390000,1.460000,1.380000,19943
2018-03-27T04:00:00Z,1.380000,1.345000,1.390000,1.340000,49210
2018-03-28T04:00:00Z,1.332500,1.320000,1.350000,1.310000,39364
2018-03-29T04:00:00Z,1.329000,1.340000,1.350000,1.306400,47836
2018-04-02T04:00:00Z,1.330000,1.320000,1.340000,1.309900,23734
2018-04-03T04:00:00Z,1.340000,1.320000,1.340000,1.310000,17355
2018-04-04T04:00:00Z,1.320000,1.320000,1.320000,1.300000,10982
2018-04-05T04:00:00Z,1.310000,1.260000,1.330000,1.250000,273199
2018-04-06T04:00:00Z,1.270000,1.290000,1.290000,1.257700,78377
2018-04-09T04:00:00Z,1.290000,1.268200,1.330000,1.250000,134137
2018-04-10T04:00:00Z,1.280000,1.300000,1.330000,1.280000,104339
2018-04-11T04:00:00Z,1.290000,1.320000,1.340000,1.290000,91766
2018-04-12T04:00:00Z,1.310000,1.360000,1.360000,1.300000,69878
2018-04-13T04:00:00Z,1.350000,1.360000,1.390000,1.330000,72508
2018-04-16T04:00:00Z,1.350000,1.400000,1.400000,1.350000,42231
2018-04-17T04:00:00Z,1.390000,1.400000,1.420000,1.370000,131029
2018-04-18T04:00:00Z,1.400000,1.390000,1.460000,1.390000,149257
2018-04-19T04:00:00Z,1.400000,1.470000,1.480000,1.400000,54620
2018-04-20T04:00:00Z,1.480000,1.609000,1.610000,1.480000,147825
2018-04-23T04:00:00Z,1.600000,1.570000,1.600000,1.531000,136591
2018-04-24T04:00:00Z,1.560000,1.580000,1.631500,1.550000,270209
2018-04-25T04:00:00Z,1.570000,1.630000,1.660000,1.550000,88310
2018-04-26T04:00:00Z,1.640000,1.630000,1.680000,1.620000,64432
2018-04-27T04:00:00Z,1.740000,1.650000,1.750000,1.630000,241543
2018-04-30T04:00:00Z,1.710000,1.795000,1.800000,1.670000,264626
2018-05-01T04:00:00Z,1.800000,1.830000,1.900000,1.783200,180477
2018-05-02T04:00:00Z,1.830000,1.830000,1.830000,1.830000,0
2018-05-03T04:00:00Z,1.830000,1.830000,1.830000,1.830000,0
2018-05-04T04:00:00Z,1.890000,1.870000,1.940000,1.840000,162111
2018-05-07T04:00:00Z,1.880000,1.955000,2.010000,1.880000,243615
2018-05-08T04:00:00Z,1.960000,1.990000,2.050000,1.910000,303113
2018-05-09T04:00:00Z,2.020000,2.120000,2.140000,2.020000,620575
2018-05-10T04:00:00Z,2.140000,2.000000,2.140000,1.980000,285010
2018-05-11T04:00:00Z,2.010000,1.911000,2.010000,1.780000,377414
2018-05-14T04:00:00Z,1.880000,1.920000,1.940000,1.861000,249240
2018-05-15T04:00:00Z,1.930000,1.950000,2.020000,1.900000,367486
2018-05-16T04:00:00Z,1.960000,1.960000,2.040000,1.930000,295020
2018-05-17T04:00:00Z,2.050000,2.040000,2.104300,2.030000,664287
2018-05-18T04:00:00Z,2.170000,2.230000,2.270000,2.055000,531347
2018-05-21T04:00:00Z,2.380000,2.640000,2.840000,2.350000,1888867
2018-05-22T04:00:00Z,2.700000,2.240000,2.750000,2.190100,1550644
2018-05-23T04:00:00Z,2.210000,2.440000,2.490000,2.200000,686750
2018-05-24T04:00:00Z,2.400000,2.305000,2.450800,2.290000,392540
2018-05-25T04:00:00Z,2.300000,2.270000,2.300000,2.120000,519015
2018-05-29T04:00:00Z,2.240000,2.290000,2.320000,2.131000,290385
2018-05-30T04:00:00Z,2.280000,2.490000,2.490000,2.260100,483616
2018-05-31T04:00:00Z,2.490000,2.540000,2.550000,2.460000,363688
2018-06-01T04:00:00Z,2.560000,2.470000,2.580000,2.430000,415879
2018-06-04T04:00:00Z,2.470000,2.410000,2.520000,2.370000,431745
2018-06-05T04:00:00Z,2.390000,2.360000,2.420000,2.240000,428678
2018-06-06T04:00:00Z,2.370000,2.460000,2.470000,2.341700,265957
2018-06-07T04:00:00Z,2.490000,2.450000,2.520000,2.410000,279062
2018-06-08T04:00:00Z,2.450000,2.460000,2.470000,2.380000,189357
2018-06-11T04:00:00Z,2.390000,2.370000,2.420000,2.300000,482481
2018-06-12T04:00:00Z,2.350000,2.390000,2.479900,2.350000,291338
2018-06-13T04:00:00Z,2.390000,2.400000,2.450000,2.360000,401697
2018-06-14T04:00:00Z,2.420000,2.320000,2.469900,2.310000,246596
2018-06-15T04:00:00Z,2.300000,2.240000,2.300000,2.240000,431375
2018-06-18T04:00:00Z,2.230000,2.330000,2.380000,2.230000,253712
2018-06-19T04:00:00Z,2.340000,2.380000,2.410000,2.270000,239488
2018-06-20T04:00:00Z,2.400000,2.360000,2.430000,2.347500,212270
2018-06-21T04:00:00Z,2.360000,2.310000,2.360000,2.280000,178407
2018-06-22T04:00:00Z,2.340000,2.390000,2.465000,2.299900,528325
2018-06-25T04:00:00Z,2.360000,2.400000,2.430000,2.320100,165693
2018-06-26T04:00:00Z,2.430000,2.440000,2.480000,2.380000,511515
2018-06-27T04:00:00Z,2.440000,2.630000,2.680000,2.440000,921135
2018-06-28T04:00:00Z,2.650000,2.720000,2.840000,2.650000,793119
2018-06-29T04:00:00Z,2.770000,2.770000,2.830000,2.690000,641578
2018-07-02T04:00:00Z,2.760000,2.730000,2.760000,2.630000,303479
2018-07-03T04:00:00Z,2.760000,2.870000,3.030000,2.756100,940880
2018-07-05T04:00:00Z,2.900000,2.900000,2.930000,2.800000,784254
2018-07-06T04:00:00Z,2.940000,2.940000,2.950000,2.860000,503533
2018-07-09T04:00:00Z,2.980000,3.290000,3.300000,2.950000,1352516
2018-07-10T04:00:00Z,3.330000,3.410000,3.480000,3.320000,1388632
2018-07-11T04:00:00Z,3.400000,3.760000,3.920000,3.330000,2036708
2018-07-12T04:00:00Z,3.890000,3.760000,3.890000,3.660000,1408573
2018-07-13T04:00:00Z,3.770000,4.050000,4.130000,3.760000,1788688
2018-07-16T04:00:00Z,3.890000,3.770000,4.000000,3.670000,1696857
2018-07-17T04:00:00Z,3.740000,3.530000,3.740000,3.520000,1012067
2018-07-18T04:00:00Z,3.520000,3.590000,3.647700,3.370000,999077
2018-07-19T04:00:00Z,3.570000,3.600000,3.700000,3.561000,753144
2018-07-20T04:00:00Z,3.600000,3.430000,3.610000,3.393200,600024
2018-07-23T04:00:00Z,3.450000,3.420000,3.500000,3.360000,384530
2018-07-24T04:00:00Z,3.370000,3.370000,3.530000,3.370000,684979
2018-07-25T04:00:00Z,3.370000,3.370000,3.460000,3.310000,361542
2018-07-26T04:00:00Z,3.330000,3.350000,3.400000,3.280000,318316
2018-07-27T04:00:00Z,3.360000,3.180000,3.360000,3.135000,540226
2018-07-30T04:00:00Z,3.180000,3.130000,3.230000,3.110000,359477
2018-07-31T04:00:00Z,3.140000,3.240000,3.300000,3.080000,421689
2018-08-01T04:00:00Z,3.240000,3.240000,3.300000,3.130000,330377
2018-08-02T04:00:00Z,3.230000,3.160000,3.270000,3.120200,247824
2018-08-03T04:00:00Z,3.170000,3.220000,3.270000,3.160000,581276
2018-08-06T04:00:00Z,3.200000,3.090000,3.300000,3.070000,430386
2018-08-07T04:00:00Z,3.100000,3.190000,3.280000,3.100000,304758
2018-08-08T04:00:00Z,3.170000,3.210000,3.240000,3.160000,418922
2018-08-09T04:00:00Z,3.210000,3.210000,3.240000,3.130000,209262
2018-08-10T04:00:00Z,3.200000,3.190000,3.230000,3.140000,363501
2018-08-13T04:00:00Z,3.220000,3.060000,3.220000,3.020000,535053
2018-08-14T04:00:00Z,3.190000,3.140000,3.500000,2.950000,2481712
2018-08-15T04:00:00Z,3.110000,2.930000,3.120000,2.830000,731248
2018-08-16T04:00:00Z,2.920000,3.070000,3.110000,2.880100,605976
2018-08-17T04:00:00Z,3.090000,3.120000,3.215000,3.070000,647208
2018-08-20T04:00:00Z,3.100000,3.330000,3.380000,3.100000,444839
2018-08-21T04:00:00Z,3.380000,3.470000,3.580000,3.310000,575477
2018-08-22T04:00:00Z,3.500000,3.470000,3.580000,3.425000,473787
2018-08-23T04:00:00Z,3.500000,3.420000,3.500000,3.250000,553845
2018-08-24T04:00:00Z,3.430000,3.490000,3.600000,3.430000,290655
2018-08-27T04:00:00Z,3.490000,3.465000,3.530000,3.420000,231808
2018-08-28T04:00:00Z,3.430000,3.430000,3.530000,3.420000,285921
2018-08-29T04:00:00Z,3.440000,3.460000,3.500000,3.420000,149776
2018-08-30T04:00:00Z,3.450000,3.390000,3.610000,3.350000,311118
2018-08-31T04:00:00Z,3.360000,3.360000,3.390000,3.310000,142985
2018-09-04T04:00:00Z,3.380000,3.320000,3.380000,3.260000,220914
2018-09-05T04:00:00Z,3.300000,3.300000,3.370000,3.190000,448471
2018-09-06T04:00:00Z,3.280000,3.240000,3.350000,3.180000,251864
2018-09-07T04:00:00Z,3.190000,3.210000,3.240000,3.160000,119194
2018-09-10T04:00:00Z,3.250000,3.510000,3.510000,3.235000,942591
2018-09-11T04:00:00Z,3.600000,3.740000,3.810000,3.521000,805400
2018-09-12T04:00:00Z,3.800000,3.630000,3.849900,3.500000,377266
2018-09-13T04:00:00Z,3.560000,3.570000,3.700000,3.540000,237828
2018-09-14T04:00:00Z,3.510000,3.630000,3.680000,3.510000,214748
2018-09-17T04:00:00Z,3.610000,3.550000,3.650000,3.525000,185804
2018-09-18T04:00:00Z,3.560000,3.390000,3.590000,3.366800,365320
2018-09-19T04:00:00Z,3.400000,3.390000,3.410000,3.350000,184086
2018-09-20T04:00:00Z,3.380000,3.310000,3.400000,3.250000,356325
2018-09-21T04:00:00Z,3.310000,3.320000,3.356000,3.230000,286338
2018-09-24T04:00:00Z,3.310000,3.440000,3.480000,3.310000,460353
2018-09-25T04:00:00Z,3.510000,3.440000,3.699900,3.410000,703328
2018-09-26T04:00:00Z,3.430000,3.340000,3.440000,3.330000,448757
2018-09-27T04:00:00Z,3.350000,3.300000,3.350000,3.280000,413943
2018-09-28T04:00:00Z,3.290000,3.340000,3.440000,3.267500,765436
2018-10-01T04:00:00Z,3.350000,3.520000,3.570000,3.350000,466184
2018-10-02T04:00:00Z,3.500000,3.470000,3.560000,3.450000,452684
2018-10-03T04:00:00Z,3.480000,3.450000,3.512100,3.355000,776343
2018-10-04T04:00:00Z,3.450000,3.320000,3.470000,3.280000,681829
2018-10-05T04:00:00Z,3.310000,3.320000,3.360000,3.107500,1167928
2018-10-08T04:00:00Z,3.300000,3.280000,3.300000,3.160000,303612
2018-10-09T04:00:00Z,3.205000,3.350000,3.410000,3.140000,157091
2018-10-10T04:00:00Z,3.360000,3.180000,3.370000,3.160000,344972
2018-10-11T04:00:00Z,3.140000,3.000000,3.210000,2.990000,497805
2018-10-12T04:00:00Z,3.050000,3.100000,3.170000,3.050000,399996
2018-10-15T04:00:00Z,3.100000,3.020000,3.150000,3.000000,372056
2018-10-16T04:00:00Z,3.010000,3.110000,3.140000,3.000000,318631
2018-10-17T04:00:00Z,3.110000,3.090000,3.130000,3.010000,230143
2018-10-18T04:00:00Z,3.050000,3.020000,3.075000,2.950000,676179
2018-10-19T04:00:00Z,3.040000,2.990000,3.100000,2.970000,229554
2018-10-22T04:00:00Z,2.970000,2.590000,3.000000,2.550000,1288423
2018-10-23T04:00:00Z,2.520000,2.030000,2.600000,2.020000,2656508
2018-10-24T04:00:00Z,2.060000,2.335000,2.440000,2.060000,1109349
2018-10-25T04:00:00Z,2.380000,2.450000,2.500000,2.270000,526121
2018-10-26T04:00:00Z,2.400000,2.450000,2.510000,2.380000,370439
2018-10-29T04:00:00Z,2.460000,2.310000,2.485000,2.270000,321060
2018-10-30T04:00:00Z,2.280000,2.310000,2.350000,2.180000,537165
2018-10-31T04:00:00Z,2.330000,2.310000,2.420000,2.300000,209198
2018-11-01T04:00:00Z,2.330000,2.470000,2.470000,2.280000,244209
2018-11-02T04:00:00Z,2.460000,2.360000,2.480000,2.310000,217971
2018-11-05T05:00:00Z,2.360000,2.370000,2.420000,2.300000,210506
2018-11-06T05:00:00Z,2.380000,2.390000,2.420000,2.320000,181261
2018-11-07T05:00:00Z,2.400000,2.410000,2.510000,2.370000,118404
2018-11-08T05:00:00Z,2.300000,2.220000,2.370000,2.140000,358571
2018-11-09T05:00:00Z,2.210000,2.170000,2.210000,2.090000,167938
2018-11-12T05:00:00Z,2.160000,2.110000,2.200000,2.050000,279461
2018-11-13T05:00:00Z,2.100000,2.380000,2.470000,2.070000,508295
2018-11-14T05:00:00Z,2.410000,2.150000,2.420000,2.120000,243351
2018-11-15T05:00:00Z,2.050000,2.190000,2.260000,2.050000,88066
2018-11-16T05:00:00Z,2.220000,2.250000,2.260000,2.120000,139373
2018-11-19T05:00:00Z,2.320000,2.320000,2.440000,2.230000,357888
2018-11-20T05:00:00Z,2.260000,2.140000,2.300000,2.080000,271729
2018-11-21T05:00:00Z,2.160000,2.220000,2.230000,2.150000,123942
2018-11-23T05:00:00Z,2.160000,2.130000,2.170000,2.100000,43045
2018-11-26T05:00:00Z,2.140000,2.170000,2.210000,2.140000,263692
2018-11-27T05:00:00Z,2.140000,2.010000,2.170000,1.970000,248142
2018-11-28T05:00:00Z,2.030000,2.050000,2.070000,1.960000,185421
2018-11-29T05:00:00Z,2.080000,2.170000,2.190000,2.000000,175954
2018-11-30T05:00:00Z,2.130000,2.160000,2.170000,2.100000,138555
2018-12-03T05:00:00Z,2.170000,2.180000,2.230000,2.150000,139522
2018-12-04T05:00:00Z,2.180000,2.130000,2.180000,2.110000,138061
2018-12-06T05:00:00Z,2.110000,1.960000,2.150600,1.920000,267495
2018-12-07T05:00:00Z,2.030000,2.000000,2.070000,1.965000,161879
2018-12-10T05:00:00Z,1.980000,1.810000,1.980000,1.795400,350949
2018-12-11T05:00:00Z,1.850000,1.900000,1.910000,1.820000,114268
2018-12-12T05:00:00Z,1.920000,1.880000,1.950000,1.870000,219854
2018-12-13T05:00:00Z,1.890000,1.860000,1.915000,1.830000,146834
2018-12-14T05:00:00Z,1.850000,1.780000,1.877300,1.770000,77116
2018-12-17T05:00:00Z,1.790000,1.770000,1.840000,1.750000,336822
2018-12-18T05:00:00Z,1.780000,1.710000,1.780000,1.698300,187583
2018-12-19T05:00:00Z,1.710000,1.660000,1.750000,1.640000,182044
2018-12-20T05:00:00Z,1.660000,1.620000,1.660000,1.549900,302601
2018-12-21T05:00:00Z,1.610000,1.580000,1.640000,1.550000,257152
2018-12-24T05:00:00Z,1.550000,1.520000,1.570000,1.500000,131869
2018-12-26T05:00:00Z,1.520000,1.660000,1.680000,1.480000,144885
2018-12-27T05:00:00Z,1.620000,1.680000,1.680000,1.580000,116338
2018-12-28T05:00:00Z,1.680000,1.690000,1.730000,1.630000,117048
2018-12-31T05:00:00Z,1.700000,1.870000,1.880000,1.690000,240242
2019-01-02T05:00:00Z,1.860000,1.800000,1.940000,1.770000,271316
2019-01-03T05:00:00Z,1.850000,1.890000,1.890000,1.760000,73237
2019-01-04T05:00:00Z,1.920000,1.940000,1.970000,1.870000,171107
2019-01-07T05:00:00Z,1.930000,2.070000,2.130000,1.930000,182583
2019-01-08T05:00:00Z,2.090000,2.040000,2.090000,1.980000,74381
2019-01-09T05:00:00Z,2.060000,2.090000,2.110000,2.030000,135859
2019-01-10T05:00:00Z,2.060000,2.030000,2.060000,2.000000,45578
2019-01-11T05:00:00Z,2.030000,1.980000,2.030000,1.970000,36152
2019-01-14T05:00:00Z,1.960000,1.940000,1.990200,1.910000,60730
2019-01-15T05:00:00Z,1.960000,1.960000,2.010000,1.940000,55244
2019-01-16T05:00:00Z,1.960000,1.940000,2.000000,1.930000,81951
2019-01-17T05:00:00Z,1.920000,1.940000,1.960000,1.900000,40371
2019-01-18T05:00:00Z,1.940000,1.890000,1.940000,1.840000,166542
2019-01-22T05:00:00Z,1.800000,1.760000,1.885800,1.750000,97054
2019-01-23T05:00:00Z,1.760000,1.750000,1.840000,1.750000,95067
2019-01-24T05:00:00Z,1.760000,1.790000,1.860000,1.760000,96753
2019-01-25T05:00:00Z,1.820000,1.860000,1.880000,1.770000,42564
2019-01-28T05:00:00Z,1.840000,1.790000,1.849200,1.770000,16799
2019-01-29T05:00:00Z,1.800000,1.730000,1.820000,1.670000,257789
2019-01-30T05:00:00Z,1.720000,1.830000,1.845000,1.720000,167468
2019-01-31T05:00:00Z,1.850000,1.810000,1.900000,1.780000,88297
2019-02-01T05:00:00Z,1.820000,1.930000,1.990000,1.820000,101705
2019-02-04T05:00:00Z,1.930000,1.930000,1.949900,1.863100,29115
2019-02-05T05:00:00Z,1.930000,1.920000,1.940000,1.880000,42499
2019-02-06T05:00:00Z,1.910000,1.930000,1.960000,1.880000,42417
2019-02-07T05:00:00Z,1.929100,1.870000,1.940000,1.828800,23427
2019-02-08T05:00:00Z,1.860000,1.840000,1.909200,1.795400,63331
2019-02-11T05:00:00Z,1.830000,1.850000,1.860000,1.800000,50591
2019-02-12T05:00:00Z,1.880000,1.910000,1.920000,1.850000,40869
2019-02-13T05:00:00Z,1.930000,1.980000,1.999900,1.930000,90024
2019-02-14T05:00:00Z,1.960000,2.010000,2.050000,1.960000,94357
2019-02-15T05:00:00Z,2.030000,2.090000,2.120000,2.030000,135272
2019-02-19T05:00:00Z,2.090000,2.120000,2.180000,2.060000,204755
2019-02-20T05:00:00Z,2.140000,2.010000,2.185000,1.965000,96727
2019-02-21T05:00:00Z,2.000000,2.020000,2.080000,2.000000,95541
2019-02-22T05:00:00Z,2.030000,2.070000,2.100000,2.020000,78945
2019-02-25T05:00:00Z,2.070000,2.040000,2.089000,2.020000,52111
2019-02-26T05:00:00Z,2.030000,1.980000,2.062900,1.960000,69955
2019-02-27T05:00:00Z,2.000000,2.015000,2.040000,2.000000,26053
2019-02-28T05:00:00Z,2.030000,1.980000,2.050000,1.980000,72475
2019-03-01T05:00:00Z,2.000000,1.980000,2.049900,1.960000,102673
2019-03-04T05:00:00Z,2.000000,1.980000,2.040000,1.980000,74370
2019-03-05T05:00:00Z,2.000000,2.060000,2.140000,2.000000,63581
2019-03-06T05:00:00Z,2.040000,2.040000,2.200000,2.020000,130748
2019-03-07T05:00:00Z,2.011800,2.040000,2.070000,1.990000,44925
2019-03-08T05:00:00Z,2.020000,2.020000,2.060000,1.980000,59004
2019-03-11T04:00:00Z,2.030000,2.070000,2.130000,2.030000,59514
2019-03-12T04:00:00Z,2.070000,2.110000,2.160000,2.060000,143027
2019-03-13T04:00:00Z,2.110000,2.080000,2.160000,2.060000,93920
2019-03-14T04:00:00Z,2.100000,2.080000,2.190000,2.030000,106073
2019-03-15T04:00:00Z,2.080000,2.030000,2.110000,2.010000,202020
2019-03-18T04:00:00Z,2.070000,2.170000,2.190000,2.069700,131085
2019-03-19T04:00:00Z,2.170000,2.140000,2.190000,2.130000,71016
2019-03-20T04:00:00Z,2.180000,2.140000,2.180000,2.120000,155915
2019-03-21T04:00:00Z,2.130000,2.090000,2.160000,2.090000,124391
2019-03-22T04:00:00Z,2.090000,1.980000,2.090000,1.970000,269987
2019-03-25T04:00:00Z,1.980000,1.860000,1.980000,1.820000,337705
2019-03-26T04:00:00Z,1.870000,1.750000,1.900000,1.720000,448275
2019-03-27T04:00:00Z,1.760000,1.840000,1.860000,1.750000,85622
2019-03-28T04:00:00Z,1.810000,1.850000,1.870000,1.810000,138212
2019-03-29T04:00:00Z,1.870000,1.890000,1.950000,1.860000,83034
2019-04-01T04:00:00Z,1.930000,1.860000,1.939900,1.820000,216757
2019-04-02T04:00:00Z,1.850000,1.860000,1.900000,1.850000,108298
2019-04-03T04:00:00Z,1.870000,1.800000,1.870000,1.790000,76699
2019-04-04T04:00:00Z,1.810000,1.790000,1.830000,1.770000,53682
2019-04-05T04:00:00Z,1.790000,1.840000,1.860000,1.770000,88358
2019-04-08T04:00:00Z,1.850000,1.880000,1.910000,1.850000,98797
2019-04-09T04:00:00Z,1.860000,1.860000,1.890000,1.850000,56554
2019-04-10T04:00:00Z,1.860000,1.890000,1.950300,1.860000,112945
2019-04-11T04:00:00Z,1.880000,1.880000,1.970000,1.860000,88099
2019-04-12T04:00:00Z,1.930000,1.880000,1.950000,1.870000,149676
2019-04-15T04:00:00Z,1.880000,1.860000,1.880000,1.830000,131966
2019-04-16T04:00:00Z,1.860000,1.860000,1.886700,1.840000,67979
2019-04-17T04:00:00Z,1.830000,1.860000,1.870000,1.830000,58421
2019-04-18T04:00:00Z,1.850000,1.880000,1.880000,1.850000,76659
2019-04-22T04:00:00Z,1.900000,1.950000,2.010000,1.900000,134946
2019-04-23T04:00:00Z,1.960000,1.890000,2.010000,1.890000,327972
2019-04-24T04:00:00Z,1.950000,1.920000,1.970000,1.890000,158850
2019-04-25T04:00:00Z,1.920000,1.930000,1.949900,1.903900,68205
2019-04-26T04:00:00Z,1.920000,1.900000,1.920000,1.850100,97129
2019-04-29T04:00:00Z,1.900000,1.950000,1.950000,1.870000,51459
2019-04-30T04:00:00Z,1.950000,1.950000,1.970000,1.920000,58159
2019-05-01T04:00:00Z,1.960000,1.920000,1.960000,1.910000,42359
2019-05-02T04:00:00Z,1.910000,1.890000,1.910000,1.870000,34605
2019-05-03T04:00:00Z,1.900000,1.880000,1.900000,1.840000,164531
2019-05-06T04:00:00Z,1.880000,1.870000,1.880000,1.849100,148526
2019-05-07T04:00:00Z,1.830000,1.840000,1.860000,1.785000,97041
2019-05-08T04:00:00Z,1.820000,1.820000,1.860000,1.820000,60662
2019-05-09T04:00:00Z,1.830000,1.810000,1.830000,1.790000,33951
2019-05-10T04:00:00Z,1.800000,1.780000,1.830000,1.779900,103545
2019-05-13T04:00:00Z,1.790000,1.770000,1.800000,1.750000,79289
2019-05-14T04:00:00Z,1.780000,1.760000,1.810000,1.755000,155519
2019-05-15T04:00:00Z,1.750000,1.750000,1.780000,1.740000,205568
2019-05-16T04:00:00Z,1.760000,1.760000,1.790000,1.750000,70216
2019-05-17T04:00:00Z,1.740000,1.730000,1.760000,1.730000,40087
2019-05-20T04:00:00Z,1.720000,1.695000,1.730000,1.680000,189272
2019-05-21T04:00:00Z,1.680000,1.670000,1.720000,1.660000,117439
2019-05-22T04:00:00Z,1.660000,1.600000,1.690000,1.600000,102432
2019-05-23T04:00:00Z,1.600000,1.520000,1.600000,1.500000,143670
2019-05-24T04:00:00Z,1.520000,1.510000,1.590000,1.490000,135467
2019-05-28T04:00:00Z,1.510000,1.510000,1.561500,1.495000,122985
2019-05-29T04:00:00Z,1.520000,1.510000,1.560000,1.500000,98125
2019-05-30T04:00:00Z,1.530000,1.500000,1.550000,1.500000,94541
2019-05-31T04:00:00Z,1.490000,1.500000,1.520000,1.440000,105129
2019-06-03T04:00:00Z,1.500000,1.530000,1.570000,1.500000,106233
2019-06-04T04:00:00Z,1.530000,1.540000,1.550000,1.490000,64752
2019-06-05T04:00:00Z,1.540000,1.530000,1.540000,1.500000,103794
2019-06-06T04:00:00Z,1.530000,1.510000,1.540000,1.510000,68009
2019-06-07T04:00:00Z,1.510000,1.550000,1.550000,1.510000,81626
2019-06-10T04:00:00Z,1.540000,1.490000,1.559100,1.470000,195468
2019-06-11T04:00:00Z,1.490000,1.470000,1.500000,1.450000,138157
2019-06-12T04:00:00Z,1.470000,1.420000,1.500000,1.400000,141939
2019-06-13T04:00:00Z,1.440000,1.460000,1.480000,1.440000,39854
2019-06-14T04:00:00Z,1.470000,1.400000,1.470000,1.380000,122096
2019-06-17T04:00:00Z,1.410000,1.410000,1.430000,1.380000,57064
2019-06-18T04:00:00Z,1.430000,1.450000,1.460000,1.410000,59341
2019-06-19T04:00:00Z,1.480000,1.400000,1.480000,1.390000,164530
2019-06-20T04:00:00Z,1.420000,1.450000,1.470000,1.410000,250860
2019-06-21T04:00:00Z,1.410000,1.410000,1.440000,1.410000,340642
2019-06-24T04:00:00Z,1.430000,1.387500,1.434900,1.380000,102024
2019-06-25T04:00:00Z,1.390000,1.400000,1.420000,1.380000,212954
2019-06-26T04:00:00Z,1.410000,1.420000,1.450000,1.370000,220041
2019-06-27T04:00:00Z,1.390000,1.420000,1.420000,1.390000,54267
2019-06-28T04:00:00Z,1.420000,1.390000,1.420000,1.390000,56224
2019-07-01T04:00:00Z,1.390000,1.400000,1.440000,1.390000,49211
2019-07-02T04:00:00Z,1.440000,1.360000,1.440000,1.350000,86327
2019-07-03T04:00:00Z,1.370000,1.360000,1.370000,1.360000,33269
2019-07-05T04:00:00Z,1.370000,1.350000,1.370000,1.340000,61844
2019-07-08T04:00:00Z,1.350000,1.350000,1.400000,1.340000,268789
2019-07-09T04:00:00Z,1.350000,1.370000,1.380000,1.340000,101651
2019-07-10T04:00:00Z,1.380000,1.450000,1.460000,1.380000,426028
2019-07-11T04:00:00Z,1.500000,1.470000,1.500100,1.450000,167493
2019-07-12T04:00:00Z,1.470000,1.465000,1.480000,1.450000,100780
2019-07-15T04:00:00Z,1.470000,1.480000,1.500000,1.460000,75345
2019-07-16T04:00:00Z,1.480000,1.460000,1.490000,1.460000,62778
2019-07-17T04:00:00Z,1.466200,1.430000,1.466200,1.430000,175353
2019-07-18T04:00:00Z,1.440000,1.430000,1.450000,1.430000,100107
2019-07-19T04:00:00Z,1.430000,1.450000,1.460000,1.420000,102566
2019-07-22T04:00:00Z,1.460000,1.430000,1.470000,1.410000,132756
2019-07-23T04:00:00Z,1.450000,1.450000,1.460000,1.430000,20762
2019-07-24T04:00:00Z,1.450000,1.450000,1.475200,1.450000,43450
2019-07-25T04:00:00Z,1.470000,1.410000,1.470000,1.410000,44812
2019-07-26T04:00:00Z,1.410000,1.380000,1.410000,1.360000,89267
2019-07-29T04:00:00Z,1.380000,1.400000,1.430000,1.380000,121594
2019-07-30T04:00:00Z,1.390000,1.480000,1.490000,1.360000,180041
2019-07-31T04:00:00Z,1.490000,1.550000,1.553100,1.465000,195386
2019-08-01T04:00:00Z,1.550000,1.525000,1.590000,1.500000,174108
2019-08-02T04:00:00Z,1.520000,1.460000,1.550000,1.450000,98179
2019-08-05T04:00:00Z,1.440000,1.460000,1.480000,1.400000,111011
2019-08-06T04:00:00Z,1.450000,1.430000,1.460000,1.420000,201502
2019-08-07T04:00:00Z,1.421600,1.440000,1.460000,1.380000,104840
2019-08-08T04:00:00Z,1.440000,1.440000,1.460000,1.410000,134609
2019-08-09T04:00:00Z,1.450000,1.430000,1.480000,1.420000,40776
2019-08-12T04:00:00Z,1.420000,1.480000,1.480000,1.400000,124176
2019-08-13T04:00:00Z,1.470000,1.520000,1.550000,1.460000,216101
2019-08-14T04:00:00Z,1.520000,1.430000,1.520000,1.420000,146078
2019-08-15T04:00:00Z,1.430000,1.440000,1.450000,1.400000,149128
2019-08-16T04:00:00Z,1.450000,1.470000,1.490000,1.400000,107665
2019-08-19T04:00:00Z,1.470000,1.450000,1.490000,1.420000,143036
2019-08-20T04:00:00Z,1.450000,1.420000,1.460000,1.400000,52251
2019-08-21T04:00:00Z,1.420000,1.440000,1.470000,1.420000,28427
2019-08-22T04:00:00Z,1.450000,1.430000,1.450000,1.420000,38045
2019-08-23T04:00:00Z,1.430000,1.350000,1.430000,1.340000,177606
2019-08-26T04:00:00Z,1.370000,1.330000,1.380000,1.320000,114811
2019-08-27T04:00:00Z,1.340000,1.330000,1.360000,1.299900,94864
2019-08-28T04:00:00Z,1.340000,1.350000,1.360000,1.335000,99917
2019-08-29T04:00:00Z,1.330000,1.350000,1.360000,1.310000,139213
2019-08-30T04:00:00Z,1.350000,1.330000,1.370000,1.310000,107811
2019-09-03T04:00:00Z,1.330000,1.330000,1.330000,1.290000,85877
2019-09-04T04:00:00Z,1.350000,1.350000,1.370000,1.330000,261866
2019-09-05T04:00:00Z,1.360000,1.370000,1.370000,1.321500,68859
2019-09-06T04:00:00Z,1.370000,1.400000,1.430000,1.350000,68281
2019-09-09T04:00:00Z,1.410000,1.450000,1.460000,1.410000,130437
2019-09-10T04:00:00Z,1.460000,1.485000,1.500000,1.440000,260699
2019-09-11T04:00:00Z,1.500000,1.480000,1.525000,1.460000,152756
2019-09-12T04:00:00Z,1.490000,1.430000,1.490000,1.411600,225106
2019-09-13T04:00:00Z,1.440000,1.410000,1.460000,1.380000,191627
2019-09-16T04:00:00Z,1.500000,1.520000,1.600000,1.490000,382457
2019-09-17T04:00:00Z,1.510000,1.460000,1.520000,1.430000,138736
2019-09-18T04:00:00Z,1.460000,1.440000,1.500000,1.430000,274574
2019-09-19T04:00:00Z,1.440000,1.470000,1.490000,1.440000,76552
2019-09-20T04:00:00Z,1.480000,1.430000,1.480000,1.400000,216438
2019-09-23T04:00:00Z,1.380000,1.410000,1.478200,1.380000,212277
2019-09-24T04:00:00Z,1.410000,1.390000,1.430000,1.380000,107354
2019-09-25T04:00:00Z,1.380000,1.370000,1.400000,1.360000,92528
2019-09-26T04:00:00Z,1.370000,1.360000,1.370000,1.340000,169801
2019-09-27T04:00:00Z,1.350000,1.330000,1.360000,1.320000,168757
2019-09-30T04:00:00Z,1.330000,1.330000,1.350000,1.310600,110060
2019-10-01T04:00:00Z,1.320000,1.320000,1.350000,1.300000,213098
2019-10-02T04:00:00Z,1.310000,1.280000,1.315000,1.260000,233329
2019-10-03T04:00:00Z,1.280000,1.280000,1.280000,1.260000,131134
2019-10-04T04:00:00Z,1.280000,1.310000,1.310000,1.280000,28906
2019-10-07T04:00:00Z,1.310000,1.320000,1.330000,1.310000,33337
2019-10-08T04:00:00Z,1.350000,1.310000,1.350000,1.290000,91703
2019-10-09T04:00:00Z,1.310000,1.300000,1.340000,1.280000,99828
2019-10-10T04:00:00Z,1.310000,1.270000,1.314200,1.250000,240396
2019-10-11T04:00:00Z,1.280000,1.290000,1.330000,1.263000,287803
2019-10-14T04:00:00Z,1.290000,1.300000,1.300000,1.280000,35702
2019-10-15T04:00:00Z,1.290000,1.290000,1.330000,1.280000,74045
2019-10-16T04:00:00Z,1.290000,1.260000,1.320000,1.260000,62526
2019-10-17T04:00:00Z,1.270000,1.270000,1.270000,1.250000,112522
2019-10-18T04:00:00Z,1.270000,1.250000,1.290000,1.240000,110842
2019-10-21T04:00:00Z,1.250000,1.250000,1.270000,1.240000,48320
2019-10-22T04:00:00Z,1.250000,1.240000,1.270000,1.230000,136985
2019-10-23T04:00:00Z,1.240000,1.230000,1.270000,1.220000,134122
2019-10-24T04:00:00Z,1.240000,1.230000,1.270000,1.220000,123739
2019-10-25T04:00:00Z,1.220000,1.210000,1.260000,1.200000,169958
2019-10-28T04:00:00Z,1.200000,1.200000,1.220000,1.190000,138955
2019-10-29T04:00:00Z,1.190000,1.185000,1.210000,1.170000,226388
2019-10-30T04:00:00Z,1.180000,1.170000,1.190000,1.160000,80614
2019-10-31T04:00:00Z,1.165000,1.160000,1.170000,1.150000,81277
2019-11-01T04:00:00Z,1.160000,1.170000,1.220000,1.150000,158321
2019-11-04T05:00:00Z,1.190000,1.240000,1.240000,1.180000,285611
2019-11-05T05:00:00Z,1.240000,1.260000,1.280000,1.230000,110904
2019-11-06T05:00:00Z,1.270000,1.230000,1.270000,1.210000,56722
2019-11-07T05:00:00Z,1.230000,1.240000,1.255000,1.225400,73214
2019-11-08T05:00:00Z,1.230000,1.230000,1.240000,1.200000,72412
2019-11-11T05:00:00Z,1.220000,1.220000,1.230000,1.200000,76709
2019-11-12T05:00:00Z,1.220000,1.180000,1.220000,1.180000,150152
2019-11-13T05:00:00Z,1.180000,1.170000,1.180000,1.160000,52422
2019-11-14T05:00:00Z,1.170000,1.170000,1.210000,1.160000,41007
2019-11-15T05:00:00Z,1.170000,1.180000,1.190000,1.170000,123438
2019-11-18T05:00:00Z,1.190000,1.130000,1.190000,1.120000,303324
2019-11-19T05:00:00Z,1.110000,1.120000,1.145000,1.110000,259765
2019-11-20T05:00:00Z,1.110000,1.140000,1.155000,1.090000,238248
2019-11-21T05:00:00Z,1.150000,1.140000,1.170000,1.140000,103496
2019-11-22T05:00:00Z,1.150000,1.140000,1.170000,1.130000,103638
2019-11-25T05:00:00Z,1.140000,1.140000,1.160000,1.110000,199252
2019-11-26T05:00:00Z,1.150000,1.160000,1.170000,1.128700,118705
2019-11-27T05:00:00Z,1.160000,1.140000,1.170000,1.140000,77077
2019-11-29T05:00:00Z,1.140000,1.130000,1.150000,1.120000,278139
2019-12-02T05:00:00Z,1.110000,1.120000,1.170000,1.070000,163730
2019-12-03T05:00:00Z,1.120000,1.130000,1.130000,1.117000,27773
2019-12-04T05:00:00Z,1.130000,1.135000,1.150000,1.110000,220913
2019-12-05T05:00:00Z,1.150000,1.140000,1.170500,1.130000,171729
2019-12-06T05:00:00Z,1.160000,1.190000,1.200000,1.150000,155696
2019-12-09T05:00:00Z,1.200000,1.180000,1.210000,1.180000,245411
2019-12-10T05:00:00Z,1.190000,1.190000,1.198900,1.160000,99420
2019-12-11T05:00:00Z,1.180000,1.190000,1.190000,1.170000,72249
2019-12-12T05:00:00Z,1.190000,1.230000,1.232700,1.173000,179305
2019-12-13T05:00:00Z,1.230000,1.270000,1.300000,1.230000,183118
2019-12-16T05:00:00Z,1.270000,1.280000,1.320000,1.260000,179353
2019-12-17T05:00:00Z,1.280000,1.250000,1.310000,1.240000,239423
2019-12-18T05:00:00Z,1.280000,1.300000,1.320000,1.240000,115353
2019-12-19T05:00:00Z,1.350000,1.390000,1.390000,1.320000,338021
2019-12-20T05:00:00Z,1.360000,1.450000,1.455000,1.360000,409817
2019-12-23T05:00:00Z,1.470000,1.480000,1.530000,1.470000,245270
2019-12-24T05:00:00Z,1.490000,1.450000,1.490000,1.450000,55086
2019-12-26T05:00:00Z,1.450000,1.440000,1.480000,1.400000,108814
2019-12-27T05:00:00Z,1.430000,1.430000,1.470000,1.430000,134394
2019-12-30T05:00:00Z,1.440000,1.480000,1.490000,1.433000,183658
2019-12-31T05:00:00Z,1.480000,1.380000,1.565000,1.360000,724228
2020-01-02T05:00:00Z,1.400000,1.460000,1.480000,1.370300,125664
2020-01-03T05:00:00Z,1.490000,1.450000,1.500000,1.417700,257440